[1] "Starting Script"


--- SESSION INFO ---
R version 4.5.2 (2025-10-31)
Platform: x86_64-pc-linux-gnu
Running under: Ubuntu 24.04.3 LTS

Matrix products: default
BLAS:   /usr/lib/x86_64-linux-gnu/openblas-pthread/libblas.so.3 
LAPACK: /usr/lib/x86_64-linux-gnu/openblas-pthread/libopenblasp-r0.3.26.so;  LAPACK version 3.12.0

locale:
 [1] LC_CTYPE=C.UTF-8       LC_NUMERIC=C           LC_TIME=C.UTF-8        LC_COLLATE=C.UTF-8    
 [5] LC_MONETARY=C.UTF-8    LC_MESSAGES=C.UTF-8    LC_PAPER=C.UTF-8       LC_NAME=C             
 [9] LC_ADDRESS=C           LC_TELEPHONE=C         LC_MEASUREMENT=C.UTF-8 LC_IDENTIFICATION=C   

time zone: UTC
tzcode source: system (glibc)

attached base packages:
[1] stats     graphics  grDevices utils     datasets  methods   base     

loaded via a namespace (and not attached):
[1] compiler_4.5.2    tools_4.5.2       rstudioapi_0.17.1
Rows: 306
Columns: 28
$ STUDYID  <chr> "CDISCPILOT01", "CDISCPILOT01", "CDISCPILOT01", "CDISCPILOT01", "CDISCPILOT01", "CDISCPILOT01…
$ USUBJID  <chr> "01-701-1015", "01-701-1023", "01-701-1028", "01-701-1033", "01-701-1034", "01-701-1047", "01…
$ SUBJID   <chr> "1015", "1023", "1028", "1033", "1034", "1047", "1057", "1097", "1111", "1115", "1118", "1130…
$ RFSTDTC  <chr> "2014-01-02", "2012-08-05", "2013-07-19", "2014-03-18", "2014-07-01", "2013-02-12", NA, "2014…
$ RFENDTC  <chr> "2014-07-02", "2012-09-02", "2014-01-14", "2014-04-14", "2014-12-30", "2013-03-29", NA, "2014…
$ RFXSTDTC <chr> "2014-01-02", "2012-08-05", "2013-07-19", "2014-03-18", "2014-07-01", "2013-02-12", NA, "2014…
$ RFXENDTC <chr> "2014-07-02", "2012-09-01", "2014-01-14", "2014-03-31", "2014-12-30", "2013-03-09", NA, "2014…
$ RFICDTC  <chr> NA, NA, NA, NA, NA, NA, NA, NA, NA, NA, NA, NA, NA, NA, NA, NA, NA, NA, NA, NA, NA, NA, NA, N…
$ RFPENDTC <chr> "2014-07-02T11:45", "2013-02-18", "2014-01-14T11:10", "2014-09-15", "2014-12-30T09:50", "2013…
$ DTHDTC   <chr> NA, NA, NA, NA, NA, NA, NA, NA, NA, NA, NA, NA, NA, NA, NA, NA, NA, NA, NA, NA, NA, NA, NA, N…
$ DTHFL    <chr> NA, NA, NA, NA, NA, NA, NA, NA, NA, NA, NA, NA, NA, NA, NA, NA, NA, NA, NA, NA, NA, NA, NA, N…
$ SITEID   <chr> "701", "701", "701", "701", "701", "701", "701", "701", "701", "701", "701", "701", "701", "7…
$ AGE      <dbl> 63, 64, 71, 74, 77, 85, 59, 68, 81, 84, 52, 84, 81, 57, 75, 57, 79, 82, 62, 56, 79, 71, 80, 8…
$ AGEU     <chr> "YEARS", "YEARS", "YEARS", "YEARS", "YEARS", "YEARS", "YEARS", "YEARS", "YEARS", "YEARS", "YE…
$ SEX      <chr> "F", "M", "M", "M", "F", "F", "F", "M", "F", "M", "M", "M", "F", "F", "F", "M", "F", "F", "F"…
$ RACE     <chr> "WHITE", "WHITE", "WHITE", "WHITE", "WHITE", "WHITE", "WHITE", "WHITE", "WHITE", "WHITE", "WH…
$ ETHNIC   <chr> "HISPANIC OR LATINO", "HISPANIC OR LATINO", "NOT HISPANIC OR LATINO", "NOT HISPANIC OR LATINO…
$ ARMCD    <chr> "Pbo", "Pbo", "Xan_Hi", "Xan_Lo", "Xan_Hi", "Pbo", "Scrnfail", "Xan_Lo", "Xan_Lo", "Xan_Lo", …
$ ARM      <chr> "Placebo", "Placebo", "Xanomeline High Dose", "Xanomeline Low Dose", "Xanomeline High Dose", …
$ ACTARMCD <chr> "Pbo", "Pbo", "Xan_Hi", "Xan_Lo", "Xan_Hi", "Pbo", "Scrnfail", "Xan_Lo", "Xan_Lo", "Xan_Lo", …
$ ACTARM   <chr> "Placebo", "Placebo", "Xanomeline High Dose", "Xanomeline Low Dose", "Xanomeline High Dose", …
$ COUNTRY  <chr> "USA", "USA", "USA", "USA", "USA", "USA", "USA", "USA", "USA", "USA", "USA", "USA", "USA", "U…
$ DMDTC    <chr> "2013-12-26", "2012-07-22", "2013-07-11", "2014-03-10", "2014-06-24", "2013-01-22", "2013-12-…
$ DMDY     <dbl> -7, -14, -8, -8, -7, -21, NA, -9, -13, -7, -13, -6, -5, NA, -13, -9, -17, NA, NA, -15, -9, -1…
$ AGEGR9   <chr> ">50", ">50", ">50", ">50", ">50", ">50", ">50", ">50", ">50", ">50", ">50", ">50", ">50", ">…
$ AGEGR9N  <dbl> 3, 3, 3, 3, 3, 3, 3, 3, 3, 3, 3, 3, 3, 3, 3, 3, 3, 3, 3, 3, 3, 3, 3, 3, 3, 3, 3, 3, 3, 3, 3, …
$ TRTSDTM  <dttm> 2014-01-02, 2012-08-05, 2013-07-19, 2014-03-18, 2014-07-01, 2013-02-12, NA, 2014-01-01, 2012…
$ TRTSTMF  <chr> "H", "H", "H", "H", "H", "H", NA, "H", "H", "H", "H", "H", "H", NA, "H", "H", "H", NA, NA, "H…
wrote 4.28kB in  0s, 427.72MB/s                                                                                                              wrote 1.00TB in  0s, 55.88TB/s                                                                                                              [1] "Script finished successfully."
